{
  "resourceType": "Bundle",
  "id": "100002",
  "type": "collection",
  "entry": [
    {
      "fullUrl": "http://ncqa.org/measures/Hedis/2024/sns-e/example/17393/Practitioner/UNK001",
      "resource": {
        "resourceType": "Practitioner",
        "id": "UNK001",
        "meta": {
          "profile": [
            "https://ncqa.org/fhir/StructureDefinition/hedis-core-practitioner"
          ],
          "tag": [
            {
              "system": "https://ncqa.org/fhir/CodeSystem/hedis-data-source",
              "code": "administrative"
            }
          ]
        },
        "extension": [
          {
            "id": "linenumber",
            "url": "text",
            "valueString": "3481"
          }
        ],
        "identifier": [
          {
            "system": "http://hl7.org.fhir/sid/us-npi",
            "value": "7848132925"
          }
        ],
        "name": [
          {
            "family": "Jast",
            "given": [
              "Elroy"
            ]
          }
        ]
      }
    },
    {
      "fullUrl": "http://ncqa.org/measures/Hedis/2024/sns-e/example/17393/PractitionerRole/visit-practitioner-role-3481",
      "resource": {
        "resourceType": "PractitionerRole",
        "id": "visit-practitioner-role-3481",
        "meta": {
          "profile": [
            "https://ncqa.org/fhir/StructureDefinition/hedis-core-practitionerrole"
          ],
          "tag": [
            {
              "system": "https://ncqa.org/fhir/CodeSystem/hedis-data-source",
              "code": "administrative"
            }
          ]
        },
        "period": {
          "start": "0001-01-01",
          "end": "9999-12-31"
        },
        "practitioner": {
          "reference": "UNK001"
        },
        "organization": {
          "reference": "visit-org-3481"
        },
        "location": [
          {
            "reference": "visit-location-3481"
          }
        ],
        "telecom": [
          {
            "system": "phone",
            "value": "1-688-260-0611 x062"
          }
        ]
      }
    },
    {
      "fullUrl": "http://ncqa.org/measures/Hedis/2024/sns-e/example/17393/Encounter/visit-encounter-3481",
      "resource": {
        "resourceType": "Encounter",
        "id": "visit-encounter-3481",
        "meta": {
          "profile": [
            "https://ncqa.org/fhir/StructureDefinition/hedis-core-encounter"
          ],
          "tag": [
            {
              "system": "https://ncqa.org/fhir/CodeSystem/hedis-data-source",
              "code": "linked"
            },
            {
              "system": "https://ncqa.org/fhir/CodeSystem/hedis-data-source",
              "code": "supplemental"
            }
          ]
        },
        "extension": [
          {
            "id": "linenumber",
            "url": "text",
            "valueString": "3481"
          }
        ],
        "status": "finished",
        "class": {
          "system": "http://terminology.hl7.org/CodeSystem/v3-NullFlavor",
          "code": "UNK",
          "display": "Unknown"
        },
        "type": [
          {
            "coding": [
              {
                "system": "http://www.ama-assn.org/go/cpt",
                "code": "96156"
              }
            ]
          }
        ],
        "subject": {
          "reference": "100002"
        },
        "participant": [
          {
            "individual": {
              "reference": "UNK001"
            }
          }
        ],
        "period": {
          "start": "2024-06-27T00:00:00.000-05:00",
          "end": "2024-06-27T00:00:00.000-05:00"
        }
      }
    },
    {
      "fullUrl": "http://ncqa.org/measures/Hedis/2024/sns-e/example/17393/ExplanationOfBenefit/1",
      "resource": {
        "resourceType": "ExplanationOfBenefit",
        "id": "1",
        "meta": {
          "lastUpdated": "2024-04-22T10:56:16.7417146-04:00",
          "profile": [
            "https://ncqa.org/fhir/StructureDefinition/hedis-core-explanationofbenefit-outpatient-institutional",
            "http://hl7.org/fhir/us/carin-bb/StructureDefinition/C4BB-ExplanationOfBenefit-Outpatient-Institutional|1.1.0"
          ],
          "tag": [
            {
              "system": "https://ncqa.org/fhir/CodeSystem/hedis-data-source",
              "code": "supplemental"
            }
          ]
        },
        "extension": [
          {
            "id": "linenumber",
            "url": "text",
            "valueString": "3481"
          }
        ],
        "identifier": [
          {
            "type": {
              "coding": [
                {
                  "system": "http://hl7.org/fhir/us/carin-bb/CodeSystem/C4BBIdentifierType",
                  "code": "uc"
                }
              ]
            },
            "system": "http://ncqa.org/fhir/StructureDefinition/ncqa-claimid",
            "value": "1"
          }
        ],
        "status": "active",
        "type": {
          "coding": [
            {
              "system": "http://terminology.hl7.org/CodeSystem/claim-type",
              "code": "institutional"
            }
          ]
        },
        "subType": {
          "coding": [
            {
              "system": "http://hl7.org/fhir/us/carin-bb/CodeSystem/C4BBInstitutionalClaimSubType",
              "code": "outpatient"
            }
          ]
        },
        "use": "claim",
        "patient": {
          "reference": "100002"
        },
        "billablePeriod": {
          "start": "2024-06-27T00:00:00.000-05:00"
        },
        "created": "2024-06-27T00:00:00.000-05:00",
        "insurer": {
          "reference": "payer-3481"
        },
        "provider": {
          "reference": "visit-org-3481"
        },
        "facility": {
          "reference": "visit-location-3481"
        },
        "outcome": "error",
        "careTeam": [
          {
            "sequence": 1,
            "provider": {
              "reference": "UNK001"
            },
            "role": {
              "coding": [
                {
                  "system": "http://terminology.hl7.org/CodeSystem/claimcareteamrole",
                  "code": "primary"
                }
              ]
            }
          }
        ],
        "diagnosis": [
          {
            "sequence": 1,
            "diagnosisCodeableConcept": {
              "coding": [
                {
                  "system": "http://hl7.org/fhir/sid/icd-10-cm",
                  "code": "T43.013A"
                }
              ]
            },
            "type": [
              {
                "coding": [
                  {
                    "system": "http://terminology.hl7.org/CodeSystem/ex-diagnosistype",
                    "code": "principal"
                  }
                ]
              }
            ]
          },
          {
            "sequence": 2,
            "diagnosisCodeableConcept": {
              "coding": [
                {
                  "system": "http://hl7.org/fhir/sid/icd-10-cm",
                  "code": "S00.36XA"
                }
              ]
            },
            "type": [
              {
                "coding": [
                  {
                    "system": "http://terminology.hl7.org/CodeSystem/ex-diagnosistype",
                    "code": "principal"
                  }
                ]
              }
            ]
          },
          {
            "sequence": 3,
            "diagnosisCodeableConcept": {
              "coding": [
                {
                  "system": "http://hl7.org/fhir/sid/icd-10-cm",
                  "code": "I85.11"
                }
              ]
            },
            "type": [
              {
                "coding": [
                  {
                    "system": "http://terminology.hl7.org/CodeSystem/ex-diagnosistype",
                    "code": "principal"
                  }
                ]
              }
            ]
          },
          {
            "sequence": 4,
            "diagnosisCodeableConcept": {
              "coding": [
                {
                  "system": "http://hl7.org/fhir/sid/icd-10-cm",
                  "code": "T24.619A"
                }
              ]
            },
            "type": [
              {
                "coding": [
                  {
                    "system": "http://terminology.hl7.org/CodeSystem/ex-diagnosistype",
                    "code": "principal"
                  }
                ]
              }
            ]
          },
          {
            "sequence": 5,
            "diagnosisCodeableConcept": {
              "coding": [
                {
                  "system": "http://hl7.org/fhir/sid/icd-10-cm",
                  "code": "C95.11"
                }
              ]
            },
            "type": [
              {
                "coding": [
                  {
                    "system": "http://terminology.hl7.org/CodeSystem/ex-diagnosistype",
                    "code": "principal"
                  }
                ]
              }
            ]
          },
          {
            "sequence": 6,
            "diagnosisCodeableConcept": {
              "coding": [
                {
                  "system": "http://hl7.org/fhir/sid/icd-10-cm",
                  "code": "S35.291A"
                }
              ]
            },
            "type": [
              {
                "coding": [
                  {
                    "system": "http://terminology.hl7.org/CodeSystem/ex-diagnosistype",
                    "code": "principal"
                  }
                ]
              }
            ]
          },
          {
            "sequence": 7,
            "diagnosisCodeableConcept": {
              "coding": [
                {
                  "system": "http://hl7.org/fhir/sid/icd-10-cm",
                  "code": "O30.022"
                }
              ]
            },
            "type": [
              {
                "coding": [
                  {
                    "system": "http://terminology.hl7.org/CodeSystem/ex-diagnosistype",
                    "code": "principal"
                  }
                ]
              }
            ]
          },
          {
            "sequence": 8,
            "diagnosisCodeableConcept": {
              "coding": [
                {
                  "system": "http://hl7.org/fhir/sid/icd-10-cm",
                  "code": "S82.452J"
                }
              ]
            },
            "type": [
              {
                "coding": [
                  {
                    "system": "http://terminology.hl7.org/CodeSystem/ex-diagnosistype",
                    "code": "principal"
                  }
                ]
              }
            ]
          }
        ],
        "insurance": [
          {
            "focal": true,
            "coverage": {
              "reference": "2092aef9-9367-4657-ac63-863feb8a0d0e"
            }
          }
        ],
        "item": [
          {
            "sequence": 1,
            "diagnosisSequence": [
              1,
              2,
              3,
              4,
              5,
              6,
              7,
              8
            ],
            "productOrService": {
              "coding": [
                {
                  "system": "http://www.ama-assn.org/go/cpt",
                  "code": "96156"
                }
              ]
            },
            "servicedDate": "2024-06-27",
            "encounter": [
              {
                "reference": "visit-encounter-3481"
              }
            ],
            "adjudication": [
              {
                "category": {
                  "coding": [
                    {
                      "system": "http://terminology.hl7.org/CodeSystem/adjudication",
                      "code": "benefit"
                    }
                  ]
                },
                "amount": {
                  "value": 0,
                  "currency": "USD"
                }
              }
            ]
          }
        ],
        "total": [
          {
            "category": {
              "coding": [
                {
                  "system": "http://terminology.hl7.org/CodeSystem/claimresponse-total",
                  "code": "total"
                }
              ]
            },
            "amount": {
              "value": 0
            }
          },
          {
            "category": {
              "coding": [
                {
                  "system": "http://terminology.hl7.org/CodeSystem/adjudication",
                  "code": "benefit"
                }
              ]
            },
            "amount": {
              "value": 0
            }
          },
          {
            "category": {
              "coding": [
                {
                  "system": "http://hl7.org/fhir/us/carin-bb/CodeSystem/C4BBPayerAdjudicationStatus",
                  "code": "innetwork"
                }
              ]
            },
            "amount": {
              "value": 0
            }
          }
        ]
      }
    },
    {
      "fullUrl": "http://ncqa.org/measures/Hedis/2024/sns-e/example/17393/Claim/1",
      "resource": {
        "resourceType": "Claim",
        "id": "1",
        "meta": {
          "profile": [
            "https://ncqa.org/fhir/StructureDefinition/hedis-core-claim"
          ],
          "tag": [
            {
              "system": "https://ncqa.org/fhir/CodeSystem/hedis-data-source",
              "code": "supplemental"
            }
          ]
        },
        "extension": [
          {
            "id": "linenumber",
            "url": "text",
            "valueString": "3481"
          }
        ],
        "status": "active",
        "type": {
          "coding": [
            {
              "system": "http://terminology.hl7.org/CodeSystem/claim-type",
              "code": "institutional"
            },
            {
              "system": "http://terminology.hl7.org/CodeSystem/claim-type",
              "code": "professional"
            },
            {
              "system": "http://terminology.hl7.org/CodeSystem/claim-type",
              "code": "oral"
            },
            {
              "system": "http://terminology.hl7.org/CodeSystem/claim-type",
              "code": "vision"
            }
          ]
        },
        "use": "claim",
        "patient": {
          "reference": "100002"
        },
        "created": "2024-06-27T00:00:00.000-05:00",
        "provider": {
          "reference": "visit-org-3481"
        },
        "priority": {
          "coding": [
            {
              "system": "http://terminology.hl7.org/CodeSystem/processpriority",
              "code": "normal"
            }
          ]
        },
        "careTeam": [
          {
            "sequence": 1,
            "provider": {
              "reference": "UNK001"
            }
          }
        ],
        "diagnosis": [
          {
            "sequence": 1,
            "diagnosisCodeableConcept": {
              "coding": [
                {
                  "system": "http://hl7.org/fhir/sid/icd-10-cm",
                  "code": "T43.013A"
                }
              ]
            }
          },
          {
            "sequence": 2,
            "diagnosisCodeableConcept": {
              "coding": [
                {
                  "system": "http://hl7.org/fhir/sid/icd-10-cm",
                  "code": "S00.36XA"
                }
              ]
            }
          },
          {
            "sequence": 3,
            "diagnosisCodeableConcept": {
              "coding": [
                {
                  "system": "http://hl7.org/fhir/sid/icd-10-cm",
                  "code": "I85.11"
                }
              ]
            }
          },
          {
            "sequence": 4,
            "diagnosisCodeableConcept": {
              "coding": [
                {
                  "system": "http://hl7.org/fhir/sid/icd-10-cm",
                  "code": "T24.619A"
                }
              ]
            }
          },
          {
            "sequence": 5,
            "diagnosisCodeableConcept": {
              "coding": [
                {
                  "system": "http://hl7.org/fhir/sid/icd-10-cm",
                  "code": "C95.11"
                }
              ]
            }
          },
          {
            "sequence": 6,
            "diagnosisCodeableConcept": {
              "coding": [
                {
                  "system": "http://hl7.org/fhir/sid/icd-10-cm",
                  "code": "S35.291A"
                }
              ]
            }
          },
          {
            "sequence": 7,
            "diagnosisCodeableConcept": {
              "coding": [
                {
                  "system": "http://hl7.org/fhir/sid/icd-10-cm",
                  "code": "O30.022"
                }
              ]
            }
          },
          {
            "sequence": 8,
            "diagnosisCodeableConcept": {
              "coding": [
                {
                  "system": "http://hl7.org/fhir/sid/icd-10-cm",
                  "code": "S82.452J"
                }
              ]
            }
          }
        ],
        "insurance": [
          {
            "sequence": 1,
            "focal": true,
            "coverage": {
              "reference": "2092aef9-9367-4657-ac63-863feb8a0d0e"
            }
          }
        ],
        "item": [
          {
            "sequence": 1,
            "diagnosisSequence": [
              1,
              2,
              3,
              4,
              5,
              6,
              7,
              8
            ],
            "productOrService": {
              "coding": [
                {
                  "system": "http://www.ama-assn.org/go/cpt",
                  "code": "96156"
                }
              ]
            },
            "servicedDate": "2024-06-27",
            "encounter": [
              {
                "reference": "visit-encounter-3481"
              }
            ]
          }
        ]
      }
    },
    {
      "fullUrl": "http://ncqa.org/measures/Hedis/2024/sns-e/example/17393/ClaimResponse/1-response",
      "resource": {
        "resourceType": "ClaimResponse",
        "id": "1-response",
        "meta": {
          "profile": [
            "https://ncqa.org/fhir/StructureDefinition/hedis-core-claimresponse"
          ],
          "tag": [
            {
              "system": "https://ncqa.org/fhir/CodeSystem/hedis-data-source",
              "code": "supplemental"
            }
          ]
        },
        "extension": [
          {
            "id": "linenumber",
            "url": "text",
            "valueString": "3481"
          }
        ],
        "status": "active",
        "type": {
          "coding": [
            {
              "system": "http://terminology.hl7.org/CodeSystem/claim-type",
              "code": "pharmacy"
            },
            {
              "system": "http://terminology.hl7.org/CodeSystem/claim-type",
              "code": "institutional"
            },
            {
              "system": "http://terminology.hl7.org/CodeSystem/claim-type",
              "code": "professional"
            },
            {
              "system": "http://terminology.hl7.org/CodeSystem/claim-type",
              "code": "oral"
            },
            {
              "system": "http://terminology.hl7.org/CodeSystem/claim-type",
              "code": "vision"
            }
          ]
        },
        "use": "claim",
        "patient": {
          "reference": "100002"
        },
        "created": "2024-06-27T00:00:00.000-05:00",
        "insurer": {
          "reference": "payer-3481"
        },
        "request": {
          "reference": "1"
        },
        "outcome": "error",
        "item": [
          {
            "itemSequence": 1,
            "adjudication": [
              {
                "category": {
                  "coding": [
                    {
                      "system": "http://terminology.hl7.org/CodeSystem/adjudication",
                      "code": "benefit"
                    }
                  ]
                },
                "amount": {
                  "value": 0,
                  "currency": "USD"
                }
              }
            ]
          }
        ]
      }
    },
    {
      "fullUrl": "http://ncqa.org/measures/Hedis/2024/sns-e/example/17393/Organization/visit-org-3481",
      "resource": {
        "resourceType": "Organization",
        "id": "visit-org-3481",
        "meta": {
          "lastUpdated": "2024-04-22T10:56:16.7426622-04:00",
          "profile": [
            "https://ncqa.org/fhir/StructureDefinition/hedis-core-organization",
            "http://hl7.org/fhir/us/carin-bb/StructureDefinition/C4BB-Organization|1.1.0"
          ],
          "tag": [
            {
              "system": "https://ncqa.org/fhir/CodeSystem/hedis-data-source",
              "code": "administrative"
            }
          ]
        },
        "active": true,
        "name": "Sawayn, Douglas and Stoltenberg"
      }
    },
    {
      "fullUrl": "http://ncqa.org/measures/Hedis/2024/sns-e/example/17393/QuestionnaireResponse/obs-questionnaire-response-8266",
      "resource": {
        "resourceType": "QuestionnaireResponse",
        "id": "obs-questionnaire-response-8266",
        "meta": {
          "profile": [
            "https://ncqa.org/fhir/StructureDefinition/hedis-core-questionnaireresponse"
          ],
          "tag": [
            {
              "system": "https://ncqa.org/fhir/CodeSystem/hedis-data-source",
              "code": "supplemental"
            }
          ]
        },
        "extension": [
          {
            "id": "linenumber",
            "url": "text",
            "valueString": "8266"
          }
        ],
        "questionnaire": "http://hl7.org/fhir/Questionnaire/3141",
        "status": "completed",
        "subject": {
          "reference": "100002"
        },
        "authored": "2024-06-25T00:00:00.000-05:00",
        "item": [
          {
            "linkId": "71802-3",
            "answer": [
              {
                "valueCoding": {
                  "system": "http://loinc.org",
                  "code": "LA31993-1"
                }
              }
            ]
          }
        ]
      }
    },
    {
      "fullUrl": "http://ncqa.org/measures/Hedis/2024/sns-e/example/17393/Observation/obs-observation-8266",
      "resource": {
        "resourceType": "Observation",
        "id": "obs-observation-8266",
        "meta": {
          "profile": [
            "https://ncqa.org/fhir/StructureDefinition/hedis-core-observation"
          ],
          "tag": [
            {
              "system": "https://ncqa.org/fhir/CodeSystem/hedis-data-source",
              "code": "supplemental"
            }
          ]
        },
        "extension": [
          {
            "id": "linenumber",
            "url": "text",
            "valueString": "8266"
          }
        ],
        "status": "final",
        "category": [
          {
            "coding": [
              {
                "system": "http://terminology.hl7.org/CodeSystem/observation-category",
                "code": "vital-signs"
              }
            ]
          }
        ],
        "code": {
          "coding": [
            {
              "system": "http://loinc.org",
              "code": "71802-3"
            }
          ]
        },
        "subject": {
          "reference": "100002"
        },
        "effectivePeriod": {
          "start": "2024-06-25T00:00:00.000-05:00",
          "end": "2024-06-25T00:00:00.000-05:00"
        },
        "valueCodeableConcept": {
          "coding": [
            {
              "system": "http://loinc.org",
              "code": "LA31993-1"
            }
          ]
        }
      }
    },
    {
      "fullUrl": "http://ncqa.org/measures/Hedis/2024/sns-e/example/17393/Procedure/obs-procedure-8266",
      "resource": {
        "resourceType": "Procedure",
        "id": "obs-procedure-8266",
        "meta": {
          "profile": [
            "https://ncqa.org/fhir/StructureDefinition/hedis-core-procedure"
          ],
          "tag": [
            {
              "system": "https://ncqa.org/fhir/CodeSystem/hedis-data-source",
              "code": "supplemental"
            }
          ]
        },
        "extension": [
          {
            "id": "linenumber",
            "url": "text",
            "valueString": "8266"
          }
        ],
        "status": "completed",
        "code": {
          "coding": [
            {
              "system": "http://loinc.org",
              "code": "71802-3"
            }
          ]
        },
        "subject": {
          "reference": "100002"
        },
        "performedDateTime": "2024-06-25T00:00:00.000-05:00"
      }
    },
    {
      "fullUrl": "http://ncqa.org/measures/Hedis/2024/sns-e/example/17393/Coverage/member-en-coverage-11932",
      "resource": {
        "resourceType": "Coverage",
        "id": "member-en-coverage-11932",
        "meta": {
          "lastUpdated": "2024-04-22T10:56:16.7441239-04:00",
          "profile": [
            "https://ncqa.org/fhir/StructureDefinition/hedis-core-coverage",
            "http://hl7.org/fhir/us/carin-bb/StructureDefinition/C4BB-Coverage|1.1.0"
          ],
          "tag": [
            {
              "system": "https://ncqa.org/fhir/CodeSystem/hedis-data-source",
              "code": "administrative"
            }
          ]
        },
        "extension": [
          {
            "id": "linenumber",
            "url": "text",
            "valueString": "11932"
          }
        ],
        "status": "active",
        "type": {
          "extension": [
            {
              "id": "originalPayer",
              "url": "https://ncqa.org/fhir/StructureDefinition/hedis-core-coverage",
              "valueString": "MMO"
            }
          ],
          "coding": [
            {
              "system": "http://terminology.hl7.org/CodeSystem/v3-ActCode",
              "code": "MENTPOL"
            },
            {
              "system": "https://ncqa.org/fhir/codesystem/hedis-coverage-type",
              "code": "IPMENTPOL"
            },
            {
              "system": "http://terminology.hl7.org/CodeSystem/v3-ActCode",
              "code": "SUBPOL"
            },
            {
              "system": "https://ncqa.org/fhir/codesystem/hedis-coverage-type",
              "code": "IPSUBPOL"
            },
            {
              "system": "https://ncqa.org/fhir/codesystem/hedis-coverage-type",
              "code": "IOSUBPOL"
            },
            {
              "system": "https://ncqa.org/fhir/codesystem/hedis-coverage-type",
              "code": "OESUBPOL"
            },
            {
              "system": "http://terminology.hl7.org/CodeSystem/v3-ActCode",
              "code": "MCPOL"
            },
            {
              "system": "https://ncqa.org/fhir/codesystem/hedis-coverage-type",
              "code": "MMO"
            }
          ]
        },
        "subscriberId": "100002",
        "beneficiary": {
          "reference": "100002"
        },
        "relationship": {
          "coding": [
            {
              "system": "http://terminology.hl7.org/CodeSystem/subscriber-relationship",
              "code": "self"
            }
          ]
        },
        "period": {
          "start": "1975-11-11T00:00:00.000-05:00",
          "end": "2025-05-10T00:00:00.000-05:00"
        },
        "payor": [
          {
            "reference": "visite-org-11932"
          }
        ]
      }
    },
    {
      "fullUrl": "http://ncqa.org/measures/Hedis/2024/sns-e/example/17393/Patient/100002",
      "resource": {
        "resourceType": "Patient",
        "id": "100002",
        "meta": {
          "profile": [
            "https://ncqa.org/fhir/StructureDefinition/hedis-core-patient"
          ],
          "tag": [
            {
              "system": "https://ncqa.org/fhir/CodeSystem/hedis-data-source",
              "code": "administrative"
            }
          ]
        },
        "extension": [
          {
            "url": "https://ncqa.org/fhir/StructureDefinition/ext-patient.spoken.language-datasource",
            "valueCoding": {
              "system": "https://ncqa.org/fhir/CodeSystem/hedis-language-datasource",
              "code": "Health Plan Direct"
            }
          },
          {
            "url": "https://ncqa.org/fhir/StructureDefinition/ext-patient.written.language-datasource",
            "valueCoding": {
              "system": "https://ncqa.org/fhir/CodeSystem/hedis-language-datasource",
              "code": "Health Plan Direct"
            }
          },
          {
            "extension": [
              {
                "url": "language",
                "valueCodeableConcept": {
                  "coding": [
                    {
                      "system": "https://ncqa.org/fhir/ValueSet/hedis-language",
                      "code": "en"
                    }
                  ]
                }
              },
              {
                "url": "preferred",
                "valueBoolean": true
              }
            ],
            "url": "https://ncqa.org/fhir/StructureDefinition/ext-patient-other-communication"
          },
          {
            "url": "https://ncqa.org/fhir/StructureDefinition/ext-patient.other.language-datasource",
            "valueCoding": {
              "system": "https://ncqa.org/fhir/CodeSystem/hedis-language-datasource",
              "code": "Health Plan Direct"
            }
          }
        ],
        "identifier": [
          {
            "use": "official",
            "system": "urn:oid:2.16.840.1.113883.3.464.1005.1",
            "value": "100002"
          },
          {
            "system": "source-line-number",
            "value": "4778"
          },
          {
            "system": "source-record",
            "value": "member-gm"
          }
        ],
        "name": [
          {
            "family": "PLastName",
            "given": [
              "PFirstName",
              "P."
            ]
          }
        ],
        "telecom": [
          {
            "system": "phone",
            "value": "9999999999"
          }
        ],
        "gender": "female",
        "birthDate": "1975-08-13",
        "address": [
          {
            "line": [
              "Address1",
              "Address2"
            ],
            "city": "City",
            "state": "AB",
            "postalCode": "99999"
          }
        ],
        "communication": [
          {
            "extension": [
              {
                "url": "http://hl7.org/fhir/StructureDefinition/patient-preferenceType",
                "valueCoding": {
                  "system": "http://hl7.org/fhir/ValueSet/language-preference-type",
                  "code": "verbal"
                }
              }
            ],
            "language": {
              "coding": [
                {
                  "system": "https://ncqa.org/fhir/ValueSet/hedis-language",
                  "code": "en"
                }
              ]
            },
            "preferred": true
          },
          {
            "extension": [
              {
                "url": "http://hl7.org/fhir/StructureDefinition/patient-preferenceType",
                "valueCoding": {
                  "system": "http://hl7.org/fhir/ValueSet/language-preference-type",
                  "code": "written"
                }
              }
            ],
            "language": {
              "coding": [
                {
                  "system": "https://ncqa.org/fhir/ValueSet/hedis-language",
                  "code": "en"
                }
              ]
            },
            "preferred": true
          }
        ]
      }
    }
  ]
}